Frequency (Hz)	Level (dB)
15.625000	-55.920170
31.250000	-56.098675
46.875000	-58.212189
62.500000	-57.093895
78.125000	-56.227188
93.750000	-59.883339
109.375000	-60.417614
125.000000	-62.099636
140.625000	-62.801559
156.250000	-62.662685
171.875000	-61.184311
187.500000	-56.808872
203.125000	-54.094795
218.750000	-49.965424
234.375000	-47.195942
250.000000	-46.297726
265.625000	-46.924480
281.250000	-46.783962
296.875000	-44.873699
312.500000	-46.658379
328.125000	-49.671600
343.750000	-47.257359
359.375000	-43.664497
375.000000	-38.520962
390.625000	-39.487152
406.250000	-43.763561
421.875000	-45.465355
437.500000	-42.663334
453.125000	-40.101097
468.750000	-42.838562
484.375000	-42.892212
500.000000	-42.657955
515.625000	-40.256916
531.250000	-36.470444
546.875000	-37.027882
562.500000	-39.276081
578.125000	-38.522636
593.750000	-42.908062
609.375000	-40.731876
625.000000	-41.972572
640.625000	-45.520432
656.250000	-44.927700
671.875000	-44.256939
687.500000	-43.472946
703.125000	-40.876762
718.750000	-40.894611
734.375000	-46.806820
750.000000	-50.061871
765.625000	-45.158508
781.250000	-39.052719
796.875000	-40.524914
812.500000	-43.725590
828.125000	-44.954967
843.750000	-47.872757
859.375000	-46.234856
875.000000	-45.432724
890.625000	-46.424210
906.250000	-43.962521
921.875000	-39.744804
937.500000	-40.645664
953.125000	-48.158257
968.750000	-46.900810
984.375000	-47.470032
1000.000000	-45.242458
1015.625000	-41.138420
1031.250000	-40.016403
1046.875000	-42.300392
1062.500000	-48.405968
1078.125000	-45.129868
1093.750000	-44.390945
1109.375000	-45.080677
1125.000000	-47.403328
1140.625000	-46.451031
1156.250000	-47.507740
1171.875000	-48.031467
1187.500000	-43.870190
1203.125000	-45.019878
1218.750000	-43.235874
1234.375000	-42.060730
1250.000000	-46.264641
1265.625000	-48.573246
1281.250000	-46.062263
1296.875000	-45.397427
1312.500000	-48.599785
1328.125000	-46.671032
1343.750000	-44.289803
1359.375000	-44.690948
1375.000000	-43.080246
1390.625000	-41.343437
1406.250000	-42.789803
1421.875000	-46.932823
1437.500000	-45.096756
1453.125000	-42.087494
1468.750000	-40.902332
1484.375000	-41.207806
1500.000000	-44.198112
1515.625000	-44.622551
1531.250000	-44.128273
1546.875000	-41.559013
1562.500000	-38.158951
1578.125000	-38.679035
1593.750000	-42.403286
1609.375000	-41.808899
1625.000000	-39.898109
1640.625000	-39.719769
1656.250000	-41.846016
1671.875000	-43.145973
1687.500000	-41.792160
1703.125000	-42.248066
1718.750000	-44.167152
1734.375000	-44.850014
1750.000000	-43.600712
1765.625000	-45.664200
1781.250000	-46.072895
1796.875000	-44.395885
1812.500000	-40.734802
1828.125000	-42.093914
1843.750000	-42.937698
1859.375000	-39.734993
1875.000000	-40.875854
1890.625000	-43.560345
1906.250000	-47.328510
1921.875000	-44.667995
1937.500000	-40.023876
1953.125000	-42.840527
1968.750000	-42.847271
1984.375000	-46.021942
2000.000000	-49.416241
2015.625000	-46.401974
2031.250000	-44.393879
2046.875000	-47.110004
2062.500000	-47.091675
2078.125000	-46.037807
2093.750000	-46.845917
2109.375000	-45.016163
2125.000000	-46.888454
2140.625000	-44.613720
2156.250000	-43.617554
2171.875000	-41.118179
2187.500000	-42.632168
2203.125000	-44.861862
2218.750000	-47.553410
2234.375000	-49.662121
2250.000000	-49.537636
2265.625000	-46.429844
2281.250000	-46.882732
2296.875000	-42.367882
2312.500000	-40.508049
2328.125000	-44.581722
2343.750000	-49.800209
2359.375000	-46.546993
2375.000000	-42.936729
2390.625000	-45.235493
2406.250000	-43.795250
2421.875000	-38.669086
2437.500000	-39.088978
2453.125000	-42.415871
2468.750000	-50.335144
2484.375000	-45.350567
2500.000000	-45.353184
2515.625000	-45.223099
2531.250000	-43.993809
2546.875000	-46.501534
2562.500000	-47.819702
2578.125000	-45.868397
2593.750000	-46.182728
2609.375000	-52.077621
2625.000000	-48.469315
2640.625000	-43.593105
2656.250000	-45.297127
2671.875000	-41.589825
2687.500000	-44.014046
2703.125000	-49.350407
2718.750000	-47.512211
2734.375000	-44.344624
2750.000000	-45.495972
2765.625000	-47.455200
2781.250000	-46.217350
2796.875000	-41.666992
2812.500000	-43.087845
2828.125000	-45.935753
2843.750000	-46.437992
2859.375000	-40.841972
2875.000000	-39.052006
2890.625000	-42.126980
2906.250000	-44.051907
2921.875000	-45.970562
2937.500000	-49.970253
2953.125000	-46.788513
2968.750000	-45.234344
2984.375000	-42.004414
3000.000000	-43.350395
3015.625000	-49.161442
3031.250000	-47.349007
3046.875000	-43.913631
3062.500000	-46.763336
3078.125000	-50.126083
3093.750000	-46.134327
3109.375000	-42.623566
3125.000000	-44.101978
3140.625000	-44.535645
3156.250000	-46.860802
3171.875000	-50.440430
3187.500000	-44.125443
3203.125000	-42.503616
3218.750000	-43.632324
3234.375000	-45.912830
3250.000000	-44.013847
3265.625000	-43.278622
3281.250000	-47.034321
3296.875000	-48.008293
3312.500000	-44.641998
3328.125000	-41.961796
3343.750000	-43.667278
3359.375000	-41.896820
3375.000000	-42.706760
3390.625000	-46.719818
3406.250000	-45.948021
3421.875000	-43.754150
3437.500000	-45.031345
3453.125000	-46.203842
3468.750000	-46.189709
3484.375000	-48.783924
3500.000000	-50.520294
3515.625000	-51.963562
3531.250000	-49.847450
3546.875000	-47.067768
3562.500000	-46.314651
3578.125000	-46.013229
3593.750000	-47.508083
3609.375000	-49.870090
3625.000000	-47.093281
3640.625000	-44.321400
3656.250000	-42.980881
3671.875000	-43.108337
3687.500000	-43.574181
3703.125000	-45.544167
3718.750000	-46.463055
3734.375000	-46.850697
3750.000000	-46.687790
3765.625000	-46.325489
3781.250000	-45.334618
3796.875000	-46.117680
3812.500000	-45.740181
3828.125000	-45.628216
3843.750000	-46.705036
3859.375000	-45.397377
3875.000000	-45.943718
3890.625000	-45.417339
3906.250000	-40.920475
3921.875000	-40.460850
3937.500000	-42.475765
3953.125000	-45.587181
3968.750000	-47.445938
3984.375000	-46.850193
4000.000000	-44.798378
4015.625000	-43.497536
4031.250000	-44.078129
4046.875000	-43.867340
4062.500000	-41.917114
4078.125000	-46.358509
4093.750000	-48.242283
4109.375000	-47.481030
4125.000000	-46.065495
4140.625000	-45.495258
4156.250000	-43.493195
4171.875000	-42.438522
4187.500000	-43.687260
4203.125000	-47.506218
4218.750000	-49.102577
4234.375000	-47.261189
4250.000000	-44.757393
4265.625000	-44.092979
4281.250000	-44.421730
4296.875000	-44.641369
4312.500000	-44.545795
4328.125000	-46.421730
4343.750000	-45.954639
4359.375000	-51.815605
4375.000000	-47.274067
4390.625000	-43.259296
4406.250000	-40.910286
4421.875000	-41.777386
4437.500000	-46.140282
4453.125000	-52.342171
4468.750000	-46.256325
4484.375000	-44.110760
4500.000000	-43.905121
4515.625000	-44.931431
4531.250000	-42.709957
4546.875000	-41.357330
4562.500000	-42.738472
4578.125000	-46.543190
4593.750000	-49.595982
4609.375000	-48.172424
4625.000000	-42.436672
4640.625000	-38.706383
4656.250000	-39.894871
4671.875000	-45.702763
4687.500000	-49.549347
4703.125000	-44.717999
4718.750000	-46.360077
4734.375000	-47.790684
4750.000000	-46.889866
4765.625000	-52.304871
4781.250000	-43.399731
4796.875000	-41.450142
4812.500000	-43.018250
4828.125000	-46.383472
4843.750000	-41.926907
4859.375000	-40.607624
4875.000000	-41.914436
4890.625000	-44.450901
4906.250000	-47.784592
4921.875000	-47.572697
4937.500000	-44.683937
4953.125000	-45.659618
4968.750000	-50.777287
4984.375000	-55.341087
5000.000000	-46.692886
5015.625000	-45.342972
5031.250000	-46.651882
5046.875000	-48.126091
5062.500000	-49.657429
5078.125000	-46.799332
5093.750000	-45.285873
5109.375000	-44.801296
5125.000000	-44.208420
5140.625000	-48.871529
5156.250000	-49.966587
5171.875000	-46.968296
5187.500000	-44.303539
5203.125000	-46.735775
5218.750000	-54.941673
5234.375000	-44.268234
5250.000000	-44.765133
5265.625000	-43.869568
5281.250000	-44.401897
5296.875000	-46.896049
5312.500000	-44.345356
5328.125000	-40.484306
5343.750000	-40.074684
5359.375000	-40.636650
5375.000000	-43.383251
5390.625000	-44.894176
5406.250000	-49.692429
5421.875000	-50.649639
5437.500000	-45.347828
5453.125000	-44.571583
5468.750000	-44.833309
5484.375000	-42.716461
5500.000000	-43.280415
5515.625000	-44.080284
5531.250000	-48.343182
5546.875000	-45.319969
5562.500000	-39.083275
5578.125000	-38.566288
5593.750000	-43.635185
5609.375000	-48.822956
5625.000000	-46.369915
5640.625000	-48.028431
5656.250000	-46.093357
5671.875000	-46.027653
5687.500000	-53.051613
5703.125000	-47.068710
5718.750000	-42.929771
5734.375000	-43.929966
5750.000000	-49.003857
5765.625000	-51.508411
5781.250000	-44.737061
5796.875000	-42.458508
5812.500000	-45.534290
5828.125000	-47.292515
5843.750000	-48.805935
5859.375000	-48.894249
5875.000000	-47.046963
5890.625000	-45.358238
5906.250000	-48.554638
5921.875000	-51.726055
5937.500000	-46.405869
5953.125000	-47.096844
5968.750000	-51.989971
5984.375000	-55.681114
6000.000000	-50.616955
6015.625000	-46.859039
6031.250000	-45.333542
6046.875000	-44.884720
6062.500000	-46.344269
6078.125000	-48.231113
6093.750000	-48.214985
6109.375000	-48.600723
6125.000000	-50.783615
6140.625000	-53.493263
6156.250000	-53.959312
6171.875000	-55.453999
6187.500000	-51.915649
6203.125000	-50.971661
6218.750000	-54.224449
6234.375000	-51.677505
6250.000000	-50.236420
6265.625000	-51.210655
6281.250000	-51.688526
6296.875000	-50.706326
6312.500000	-50.574631
6328.125000	-49.673954
6343.750000	-49.555359
6359.375000	-51.472515
6375.000000	-54.859764
6390.625000	-57.030174
6406.250000	-52.651058
6421.875000	-52.515305
6437.500000	-50.737885
6453.125000	-49.676758
6468.750000	-52.591194
6484.375000	-48.820400
6500.000000	-47.428577
6515.625000	-51.730587
6531.250000	-65.598732
6546.875000	-54.239582
6562.500000	-48.710438
6578.125000	-49.317711
6593.750000	-55.047832
6609.375000	-60.964760
6625.000000	-55.900627
6640.625000	-52.647724
6656.250000	-54.659332
6671.875000	-60.241508
6687.500000	-57.947868
6703.125000	-56.841122
6718.750000	-55.607719
6734.375000	-56.519962
6750.000000	-61.499664
6765.625000	-65.856415
6781.250000	-60.569775
6796.875000	-58.368313
6812.500000	-59.594242
6828.125000	-60.748470
6843.750000	-63.077385
6859.375000	-61.132488
6875.000000	-63.133766
6890.625000	-66.270195
6906.250000	-64.341621
6921.875000	-67.564461
6937.500000	-59.508472
6953.125000	-59.375145
6968.750000	-63.107780
6984.375000	-68.403496
7000.000000	-65.227440
7015.625000	-64.288239
7031.250000	-66.419258
7046.875000	-67.521111
7062.500000	-67.164612
7078.125000	-69.049286
7093.750000	-72.054924
7109.375000	-72.717590
7125.000000	-69.782394
7140.625000	-68.770226
7156.250000	-66.063835
7171.875000	-67.057205
7187.500000	-71.707184
7203.125000	-71.138420
7218.750000	-73.620201
7234.375000	-78.303711
7250.000000	-72.954407
7265.625000	-68.700768
7281.250000	-68.060455
7296.875000	-71.003326
7312.500000	-76.399437
7328.125000	-79.600418
7343.750000	-80.258476
7359.375000	-79.592354
7375.000000	-81.875351
7390.625000	-81.138710
7406.250000	-78.791130
7421.875000	-76.694496
7437.500000	-77.261055
7453.125000	-81.139572
7468.750000	-87.954582
7484.375000	-89.512596
7500.000000	-87.205330
7515.625000	-86.530952
7531.250000	-83.609024
7546.875000	-84.829643
7562.500000	-89.245132
7578.125000	-89.762619
7593.750000	-89.403679
7609.375000	-89.622971
7625.000000	-90.188263
7640.625000	-90.868042
7656.250000	-91.267212
7671.875000	-91.270447
7687.500000	-91.410889
7703.125000	-91.219887
7718.750000	-91.249634
7734.375000	-91.231903
7750.000000	-91.521500
7765.625000	-91.392647
7781.250000	-91.429001
7796.875000	-91.497559
7812.500000	-91.387558
7828.125000	-91.182274
7843.750000	-91.229782
7859.375000	-91.307434
7875.000000	-91.331833
7890.625000	-91.365654
7906.250000	-91.328598
7921.875000	-91.210594
7937.500000	-91.381470
7953.125000	-91.476578
7968.750000	-91.531342
7984.375000	-91.630203
