Frequency (Hz)	Level (dB)
15.625000	-65.932213
31.250000	-65.067978
46.875000	-69.056511
62.500000	-68.790977
78.125000	-68.703438
93.750000	-71.188652
109.375000	-70.432541
125.000000	-72.124039
140.625000	-73.215271
156.250000	-72.836189
171.875000	-72.112595
187.500000	-68.830444
203.125000	-66.347054
218.750000	-62.700565
234.375000	-60.338848
250.000000	-59.048267
265.625000	-59.852497
281.250000	-60.929508
296.875000	-58.961971
312.500000	-60.407120
328.125000	-63.681915
343.750000	-61.860004
359.375000	-58.058342
375.000000	-52.428505
390.625000	-52.660458
406.250000	-58.171772
421.875000	-61.052216
437.500000	-59.030716
453.125000	-55.999012
468.750000	-57.918259
484.375000	-58.380894
500.000000	-56.920891
515.625000	-57.824741
531.250000	-54.348003
546.875000	-52.970608
562.500000	-55.569618
578.125000	-55.630398
593.750000	-58.243458
609.375000	-58.466545
625.000000	-59.004055
640.625000	-60.615887
656.250000	-61.902702
671.875000	-61.532780
687.500000	-62.522068
703.125000	-58.522625
718.750000	-57.231834
734.375000	-61.563305
750.000000	-64.314163
765.625000	-64.176842
781.250000	-61.772991
796.875000	-61.018265
812.500000	-65.762230
828.125000	-69.244545
843.750000	-70.275902
859.375000	-68.518013
875.000000	-64.101967
890.625000	-64.020363
906.250000	-68.083595
921.875000	-68.671631
937.500000	-67.369545
953.125000	-64.863602
968.750000	-60.814323
984.375000	-63.229427
1000.000000	-67.524635
1015.625000	-64.288719
1031.250000	-66.849945
1046.875000	-62.748032
1062.500000	-62.416584
1078.125000	-62.497192
1093.750000	-63.442196
1109.375000	-58.045956
1125.000000	-57.400085
1140.625000	-58.640709
1156.250000	-65.425743
1171.875000	-63.776955
1187.500000	-58.342331
1203.125000	-57.025478
1218.750000	-60.739376
1234.375000	-64.129440
1250.000000	-61.972267
1265.625000	-59.161930
1281.250000	-57.025047
1296.875000	-59.788548
1312.500000	-62.684498
1328.125000	-60.347427
1343.750000	-59.328773
1359.375000	-60.928982
1375.000000	-64.597023
1390.625000	-61.910751
1406.250000	-59.169186
1421.875000	-57.072315
1437.500000	-59.432178
1453.125000	-67.025940
1468.750000	-62.745762
1484.375000	-56.932823
1500.000000	-54.747654
1515.625000	-57.251118
1531.250000	-64.391197
1546.875000	-62.230175
1562.500000	-57.487770
1578.125000	-55.944851
1593.750000	-57.433338
1609.375000	-61.112610
1625.000000	-58.106705
1640.625000	-55.958012
1656.250000	-55.352848
1671.875000	-59.837238
1687.500000	-59.518581
1703.125000	-55.778767
1718.750000	-52.483452
1734.375000	-52.151470
1750.000000	-58.353493
1765.625000	-57.526531
1781.250000	-58.223488
1796.875000	-59.107162
1812.500000	-57.614170
1828.125000	-57.011929
1843.750000	-54.709064
1859.375000	-53.354927
1875.000000	-58.028389
1890.625000	-55.883324
1906.250000	-55.986954
1921.875000	-58.389893
1937.500000	-53.108345
1953.125000	-55.364300
1968.750000	-57.729061
1984.375000	-54.532944
2000.000000	-57.360920
2015.625000	-55.519444
2031.250000	-55.763908
2046.875000	-55.088737
2062.500000	-54.822289
2078.125000	-54.442234
2093.750000	-53.689503
2109.375000	-53.026474
2125.000000	-53.652481
2140.625000	-55.637680
2156.250000	-54.066635
2171.875000	-54.300457
2187.500000	-55.700466
2203.125000	-55.925537
2218.750000	-55.380917
2234.375000	-57.305737
2250.000000	-59.295654
2265.625000	-55.687675
2281.250000	-55.641453
2296.875000	-54.783691
2312.500000	-54.135136
2328.125000	-57.492889
2343.750000	-57.564285
2359.375000	-55.315746
2375.000000	-55.905926
2390.625000	-57.013096
2406.250000	-61.871010
2421.875000	-60.179657
2437.500000	-59.684525
2453.125000	-55.734352
2468.750000	-57.301544
2484.375000	-62.030148
2500.000000	-63.003265
2515.625000	-55.721478
2531.250000	-54.924965
2546.875000	-58.495731
2562.500000	-57.313824
2578.125000	-57.583477
2593.750000	-57.174381
2609.375000	-56.477085
2625.000000	-57.278709
2640.625000	-54.366283
2656.250000	-54.920544
2671.875000	-57.095585
2687.500000	-59.576649
2703.125000	-56.491772
2718.750000	-53.654694
2734.375000	-53.794949
2750.000000	-64.427696
2765.625000	-56.001694
2781.250000	-56.866085
2796.875000	-56.662197
2812.500000	-54.150333
2828.125000	-56.377277
2843.750000	-57.089191
2859.375000	-52.763863
2875.000000	-51.397247
2890.625000	-53.569408
2906.250000	-54.299385
2921.875000	-53.475800
2937.500000	-55.758427
2953.125000	-57.678303
2968.750000	-58.193470
2984.375000	-56.499226
3000.000000	-54.616199
3015.625000	-54.580151
3031.250000	-55.975079
3046.875000	-56.767067
3062.500000	-56.309364
3078.125000	-57.555325
3093.750000	-54.771355
3109.375000	-54.317131
3125.000000	-54.955265
3140.625000	-51.925472
3156.250000	-52.848972
3171.875000	-54.758408
3187.500000	-54.765469
3203.125000	-56.850616
3218.750000	-54.789211
3234.375000	-50.834167
3250.000000	-53.954315
3265.625000	-57.711502
3281.250000	-56.580410
3296.875000	-53.930538
3312.500000	-55.551357
3328.125000	-56.652763
3343.750000	-55.237137
3359.375000	-54.891487
3375.000000	-54.072460
3390.625000	-55.196968
3406.250000	-56.745083
3421.875000	-56.069080
3437.500000	-57.283108
3453.125000	-56.321335
3468.750000	-54.837132
3484.375000	-52.638645
3500.000000	-52.132313
3515.625000	-54.025742
3531.250000	-55.009560
3546.875000	-54.795033
3562.500000	-50.916271
3578.125000	-49.615540
3593.750000	-51.959892
3609.375000	-52.853374
3625.000000	-53.369171
3640.625000	-52.766148
3656.250000	-50.263824
3671.875000	-50.486797
3687.500000	-51.854317
3703.125000	-52.055386
3718.750000	-50.099670
3734.375000	-48.987389
3750.000000	-49.733360
3765.625000	-51.419834
3781.250000	-53.301746
3796.875000	-52.478539
3812.500000	-49.600380
3828.125000	-50.222431
3843.750000	-50.390053
3859.375000	-51.394238
3875.000000	-52.836517
3890.625000	-55.284302
3906.250000	-52.042976
3921.875000	-49.567009
3937.500000	-50.844097
3953.125000	-52.611935
3968.750000	-52.893551
3984.375000	-50.513489
4000.000000	-53.481113
4015.625000	-56.438736
4031.250000	-53.617920
4046.875000	-53.471302
4062.500000	-54.837204
4078.125000	-56.263878
4093.750000	-55.297733
4109.375000	-55.525997
4125.000000	-55.013985
4140.625000	-57.530357
4156.250000	-60.305477
4171.875000	-55.449512
4187.500000	-54.256897
4203.125000	-56.060635
4218.750000	-57.694092
4234.375000	-60.358158
4250.000000	-63.592915
4265.625000	-64.291122
4281.250000	-55.747833
4296.875000	-55.178265
4312.500000	-57.722485
4328.125000	-62.338699
4343.750000	-63.347202
4359.375000	-61.418659
4375.000000	-60.550213
4390.625000	-62.449047
4406.250000	-63.656807
4421.875000	-62.833973
4437.500000	-58.991238
4453.125000	-57.095379
4468.750000	-63.446621
4484.375000	-70.387131
4500.000000	-63.685982
4515.625000	-63.380402
4531.250000	-60.968704
4546.875000	-61.442680
4562.500000	-63.710751
4578.125000	-64.090866
4593.750000	-61.711693
4609.375000	-64.247719
4625.000000	-66.138786
4640.625000	-67.976585
4656.250000	-61.152050
4671.875000	-60.102821
4687.500000	-63.660294
4703.125000	-65.420784
4718.750000	-63.732140
4734.375000	-63.811695
4750.000000	-64.355850
4765.625000	-60.061310
4781.250000	-60.412598
4796.875000	-62.769505
4812.500000	-63.897564
4828.125000	-64.590897
4843.750000	-65.380310
4859.375000	-64.476601
4875.000000	-62.379761
4890.625000	-60.776222
4906.250000	-61.354244
4921.875000	-64.505333
4937.500000	-65.066528
4953.125000	-62.521084
4968.750000	-58.725471
4984.375000	-58.089859
5000.000000	-60.016300
5015.625000	-62.408707
5031.250000	-63.477612
5046.875000	-65.278374
5062.500000	-65.712860
5078.125000	-63.124580
5093.750000	-61.567692
5109.375000	-62.145046
5125.000000	-62.034191
5140.625000	-62.587708
5156.250000	-64.572540
5171.875000	-66.874390
5187.500000	-69.354568
5203.125000	-66.696457
5218.750000	-58.797970
5234.375000	-56.638607
5250.000000	-58.659859
5265.625000	-62.981274
5281.250000	-64.064476
5296.875000	-61.792595
5312.500000	-62.898891
5328.125000	-61.643784
5343.750000	-60.474281
5359.375000	-61.179462
5375.000000	-61.655445
5390.625000	-63.170158
5406.250000	-65.817619
5421.875000	-65.573967
5437.500000	-65.347359
5453.125000	-61.982651
5468.750000	-61.533249
5484.375000	-61.701801
5500.000000	-63.305584
5515.625000	-65.408340
5531.250000	-65.531586
5546.875000	-63.403770
5562.500000	-61.615040
5578.125000	-63.398075
5593.750000	-67.061012
5609.375000	-67.060196
5625.000000	-67.295441
5640.625000	-67.361748
5656.250000	-68.181847
5671.875000	-65.538055
5687.500000	-63.614326
5703.125000	-64.104584
5718.750000	-66.095795
5734.375000	-70.619179
5750.000000	-72.319809
5765.625000	-67.042801
5781.250000	-67.774414
5796.875000	-66.832428
5812.500000	-69.064560
5828.125000	-75.513649
5843.750000	-72.861656
5859.375000	-73.689384
5875.000000	-73.618111
5890.625000	-68.984871
5906.250000	-67.562767
5921.875000	-65.267448
5937.500000	-66.322350
5953.125000	-71.800667
5968.750000	-74.091446
5984.375000	-68.434029
6000.000000	-65.848831
6015.625000	-68.940422
6031.250000	-67.120636
6046.875000	-68.082115
6062.500000	-69.528587
6078.125000	-68.636787
6093.750000	-68.692169
6109.375000	-69.430969
6125.000000	-69.733040
6140.625000	-68.793045
6156.250000	-68.132172
6171.875000	-69.176216
6187.500000	-73.120575
6203.125000	-71.174614
6218.750000	-66.923317
6234.375000	-66.605598
6250.000000	-65.826675
6265.625000	-65.749733
6281.250000	-67.148872
6296.875000	-69.343422
6312.500000	-70.207405
6328.125000	-66.338684
6343.750000	-65.420204
6359.375000	-66.452545
6375.000000	-64.691582
6390.625000	-64.713196
6406.250000	-65.398613
6421.875000	-64.778069
6437.500000	-65.253700
6453.125000	-67.321472
6468.750000	-65.244934
6484.375000	-63.778931
6500.000000	-62.699566
6515.625000	-63.261967
6531.250000	-65.067940
6546.875000	-65.442917
6562.500000	-64.301437
6578.125000	-65.703407
6593.750000	-66.361267
6609.375000	-68.758095
6625.000000	-67.785133
6640.625000	-65.382111
6656.250000	-66.985291
6671.875000	-65.483643
6687.500000	-64.457733
6703.125000	-65.300171
6718.750000	-66.970474
6734.375000	-68.430687
6750.000000	-67.559372
6765.625000	-68.833382
6781.250000	-73.281593
6796.875000	-70.811981
6812.500000	-68.492981
6828.125000	-67.940285
6843.750000	-69.052246
6859.375000	-70.402527
6875.000000	-70.644547
6890.625000	-71.262917
6906.250000	-73.436104
6921.875000	-74.392654
6937.500000	-72.497871
6953.125000	-72.489769
6968.750000	-73.012779
6984.375000	-73.998482
7000.000000	-74.812645
7015.625000	-76.730858
7031.250000	-78.403946
7046.875000	-79.471268
7062.500000	-77.042595
7078.125000	-77.283333
7093.750000	-78.900246
7109.375000	-80.412544
7125.000000	-81.060371
7140.625000	-79.940590
7156.250000	-80.886215
7171.875000	-82.692619
7187.500000	-85.076035
7203.125000	-85.934364
7218.750000	-85.828110
7234.375000	-88.702385
7250.000000	-88.330925
7265.625000	-89.445580
7281.250000	-90.986649
7296.875000	-88.089676
7312.500000	-86.823700
7328.125000	-88.052711
7343.750000	-89.575439
7359.375000	-92.636299
7375.000000	-94.403069
7390.625000	-94.365868
7406.250000	-93.961128
7421.875000	-95.659767
7437.500000	-94.923431
7453.125000	-95.064232
7468.750000	-95.445587
7484.375000	-95.705582
7500.000000	-96.076599
7515.625000	-96.482338
7531.250000	-95.988281
7546.875000	-95.230484
7562.500000	-95.474899
7578.125000	-96.156647
7593.750000	-96.245972
7609.375000	-96.149002
7625.000000	-96.324463
7640.625000	-96.216530
7656.250000	-96.380211
7671.875000	-96.390808
7687.500000	-96.307228
7703.125000	-96.168037
7718.750000	-96.086670
7734.375000	-96.263199
7750.000000	-96.235741
7765.625000	-96.293678
7781.250000	-96.144516
7796.875000	-96.301025
7812.500000	-96.306808
7828.125000	-96.259140
7843.750000	-96.154312
7859.375000	-96.225739
7875.000000	-96.316216
7890.625000	-96.297295
7906.250000	-96.308739
7921.875000	-96.124382
7937.500000	-96.081879
7953.125000	-96.179535
7968.750000	-96.244621
7984.375000	-96.300484
