Frequency (Hz)	Level (dB)
15.625000	-67.886452
31.250000	-68.709175
46.875000	-71.468147
62.500000	-76.040337
78.125000	-76.914192
93.750000	-76.472656
109.375000	-76.709007
125.000000	-74.314949
140.625000	-69.517830
156.250000	-67.434547
171.875000	-67.143044
187.500000	-68.455978
203.125000	-68.829308
218.750000	-67.348488
234.375000	-66.003540
250.000000	-65.201416
265.625000	-65.056526
281.250000	-64.660889
296.875000	-63.298054
312.500000	-65.110619
328.125000	-67.144821
343.750000	-65.027397
359.375000	-61.561325
375.000000	-56.418941
390.625000	-56.995953
406.250000	-60.544373
421.875000	-61.547626
437.500000	-58.913082
453.125000	-56.814678
468.750000	-59.588860
484.375000	-58.547649
500.000000	-57.929123
515.625000	-55.711494
531.250000	-51.597473
546.875000	-51.965336
562.500000	-54.333225
578.125000	-53.331383
593.750000	-57.215458
609.375000	-55.228905
625.000000	-56.442486
640.625000	-59.653488
656.250000	-58.081203
671.875000	-57.212219
687.500000	-56.811222
703.125000	-54.268745
718.750000	-54.524445
734.375000	-58.238266
750.000000	-56.842659
765.625000	-55.647831
781.250000	-51.293468
796.875000	-51.668995
812.500000	-53.548462
828.125000	-55.075787
843.750000	-58.970123
859.375000	-57.881222
875.000000	-58.163071
890.625000	-59.038094
906.250000	-59.772923
921.875000	-52.885056
937.500000	-52.570415
953.125000	-56.883148
968.750000	-58.593155
984.375000	-56.544704
1000.000000	-57.790234
1015.625000	-53.781528
1031.250000	-51.246754
1046.875000	-52.076595
1062.500000	-54.261196
1078.125000	-54.187794
1093.750000	-54.957134
1109.375000	-54.254379
1125.000000	-54.806511
1140.625000	-56.192818
1156.250000	-56.802052
1171.875000	-58.084843
1187.500000	-55.058384
1203.125000	-55.549961
1218.750000	-53.146465
1234.375000	-51.321117
1250.000000	-56.398293
1265.625000	-56.850426
1281.250000	-54.971020
1296.875000	-55.382290
1312.500000	-58.421604
1328.125000	-54.186104
1343.750000	-52.430965
1359.375000	-52.351318
1375.000000	-50.544994
1390.625000	-50.134560
1406.250000	-51.239677
1421.875000	-54.843998
1437.500000	-56.241333
1453.125000	-51.671803
1468.750000	-49.315536
1484.375000	-49.662148
1500.000000	-51.050320
1515.625000	-50.698170
1531.250000	-52.401646
1546.875000	-49.596550
1562.500000	-45.605190
1578.125000	-45.937691
1593.750000	-49.657654
1609.375000	-50.275394
1625.000000	-47.348888
1640.625000	-48.373077
1656.250000	-50.920280
1671.875000	-51.091831
1687.500000	-48.529922
1703.125000	-47.196819
1718.750000	-48.972023
1734.375000	-50.155861
1750.000000	-47.699184
1765.625000	-49.841934
1781.250000	-49.626991
1796.875000	-46.912701
1812.500000	-44.024410
1828.125000	-46.089790
1843.750000	-45.627907
1859.375000	-44.712238
1875.000000	-48.188877
1890.625000	-45.903637
1906.250000	-46.763504
1921.875000	-47.448120
1937.500000	-42.203091
1953.125000	-46.046898
1968.750000	-45.068909
1984.375000	-44.562904
2000.000000	-48.815559
2015.625000	-50.685387
2031.250000	-44.392288
2046.875000	-45.324944
2062.500000	-45.642464
2078.125000	-44.958645
2093.750000	-46.933659
2109.375000	-49.846420
2125.000000	-51.384315
2140.625000	-51.103085
2156.250000	-52.321007
2171.875000	-47.646431
2187.500000	-45.131744
2203.125000	-46.296227
2218.750000	-50.625168
2234.375000	-49.871231
2250.000000	-48.000740
2265.625000	-49.192558
2281.250000	-49.899693
2296.875000	-52.313107
2312.500000	-52.642933
2328.125000	-49.483116
2343.750000	-49.557945
2359.375000	-52.056900
2375.000000	-45.690735
2390.625000	-45.848694
2406.250000	-48.562302
2421.875000	-48.175583
2437.500000	-47.339298
2453.125000	-47.501865
2468.750000	-49.610840
2484.375000	-49.734962
2500.000000	-51.274082
2515.625000	-49.233776
2531.250000	-48.811287
2546.875000	-48.118187
2562.500000	-48.660252
2578.125000	-51.361588
2593.750000	-50.261944
2609.375000	-54.090622
2625.000000	-49.003765
2640.625000	-45.128475
2656.250000	-45.117165
2671.875000	-46.799030
2687.500000	-48.627338
2703.125000	-51.168148
2718.750000	-48.870480
2734.375000	-44.855286
2750.000000	-42.927673
2765.625000	-45.389866
2781.250000	-50.430401
2796.875000	-49.426731
2812.500000	-47.571609
2828.125000	-47.451828
2843.750000	-45.454288
2859.375000	-44.668392
2875.000000	-47.934704
2890.625000	-47.256283
2906.250000	-47.848423
2921.875000	-46.740334
2937.500000	-43.525089
2953.125000	-43.089661
2968.750000	-45.673931
2984.375000	-49.053478
3000.000000	-51.227791
3015.625000	-54.489929
3031.250000	-48.281586
3046.875000	-45.821598
3062.500000	-46.441673
3078.125000	-48.298985
3093.750000	-44.403709
3109.375000	-43.148785
3125.000000	-47.026062
3140.625000	-54.087715
3156.250000	-47.125931
3171.875000	-44.901814
3187.500000	-46.641575
3203.125000	-46.006557
3218.750000	-47.936829
3234.375000	-47.460617
3250.000000	-45.623413
3265.625000	-45.363152
3281.250000	-43.653065
3296.875000	-44.304287
3312.500000	-45.087479
3328.125000	-44.329700
3343.750000	-46.058563
3359.375000	-45.411152
3375.000000	-44.007378
3390.625000	-45.511810
3406.250000	-43.768734
3421.875000	-38.963047
3437.500000	-39.260700
3453.125000	-43.339828
3468.750000	-46.985081
3484.375000	-48.146656
3500.000000	-40.736500
3515.625000	-39.335869
3531.250000	-40.876110
3546.875000	-43.593971
3562.500000	-42.119637
3578.125000	-44.375977
3593.750000	-41.590126
3609.375000	-39.911526
3625.000000	-40.476360
3640.625000	-43.156494
3656.250000	-41.129620
3671.875000	-38.934502
3687.500000	-38.086079
3703.125000	-39.546303
3718.750000	-41.542549
3734.375000	-44.040039
3750.000000	-38.307686
3765.625000	-36.800697
3781.250000	-38.110012
3796.875000	-40.731396
3812.500000	-43.580437
3828.125000	-40.427483
3843.750000	-37.728008
3859.375000	-37.846310
3875.000000	-39.189045
3890.625000	-38.228451
3906.250000	-41.163696
3921.875000	-39.346134
3937.500000	-37.403553
3953.125000	-37.722942
3968.750000	-40.040989
3984.375000	-37.224949
4000.000000	-35.899105
4015.625000	-37.941525
4031.250000	-38.114391
4046.875000	-39.193317
4062.500000	-39.120033
4078.125000	-36.766674
4093.750000	-35.654209
4109.375000	-36.047012
4125.000000	-37.917725
4140.625000	-39.750095
4156.250000	-40.118923
4171.875000	-37.679932
4187.500000	-37.737751
4203.125000	-37.520439
4218.750000	-37.550835
4234.375000	-39.333290
4250.000000	-42.134609
4265.625000	-42.978271
4281.250000	-40.569401
4296.875000	-36.787910
4312.500000	-36.820274
4328.125000	-39.459137
4343.750000	-42.386211
4359.375000	-38.944572
4375.000000	-38.257553
4390.625000	-38.412998
4406.250000	-38.968029
4421.875000	-38.972942
4437.500000	-40.281204
4453.125000	-39.602299
4468.750000	-37.030678
4484.375000	-37.476128
4500.000000	-39.460354
4515.625000	-40.294998
4531.250000	-40.013237
4546.875000	-37.635860
4562.500000	-36.965717
4578.125000	-39.679855
4593.750000	-41.111839
4609.375000	-41.486217
4625.000000	-41.425446
4640.625000	-41.654182
4656.250000	-42.438370
4671.875000	-42.759140
4687.500000	-42.584766
4703.125000	-42.133095
4718.750000	-41.783737
4734.375000	-44.675846
4750.000000	-45.053143
4765.625000	-43.789204
4781.250000	-42.489227
4796.875000	-43.781479
4812.500000	-45.579708
4828.125000	-46.165306
4843.750000	-45.082874
4859.375000	-48.253540
4875.000000	-47.346790
4890.625000	-45.409725
4906.250000	-45.490845
4921.875000	-47.187550
4937.500000	-47.995434
4953.125000	-48.076084
4968.750000	-46.498051
4984.375000	-44.220757
5000.000000	-45.423962
5015.625000	-45.272125
5031.250000	-46.431801
5046.875000	-49.506935
5062.500000	-46.220387
5078.125000	-42.814705
5093.750000	-43.399818
5109.375000	-45.333527
5125.000000	-48.219368
5140.625000	-49.500908
5156.250000	-48.607655
5171.875000	-46.327446
5187.500000	-41.875786
5203.125000	-45.700092
5218.750000	-47.206360
5234.375000	-41.720470
5250.000000	-41.840141
5265.625000	-44.339745
5281.250000	-44.803432
5296.875000	-48.153645
5312.500000	-46.815376
5328.125000	-41.020794
5343.750000	-39.303905
5359.375000	-41.143661
5375.000000	-44.151295
5390.625000	-45.011574
5406.250000	-43.188675
5421.875000	-40.722427
5437.500000	-44.473034
5453.125000	-42.244766
5468.750000	-41.391567
5484.375000	-37.686253
5500.000000	-39.230942
5515.625000	-43.164490
5531.250000	-44.983509
5546.875000	-41.394180
5562.500000	-40.857399
5578.125000	-42.808743
5593.750000	-41.463139
5609.375000	-41.563797
5625.000000	-41.876617
5640.625000	-43.029495
5656.250000	-42.675674
5671.875000	-44.364002
5687.500000	-41.127850
5703.125000	-41.368362
5718.750000	-39.553158
5734.375000	-39.687450
5750.000000	-42.251793
5765.625000	-44.430088
5781.250000	-43.631836
5796.875000	-41.778904
5812.500000	-41.098431
5828.125000	-42.629902
5843.750000	-43.455280
5859.375000	-41.840866
5875.000000	-41.981403
5890.625000	-42.255894
5906.250000	-44.796539
5921.875000	-46.541302
5937.500000	-41.689705
5953.125000	-40.233177
5968.750000	-42.158688
5984.375000	-45.509502
6000.000000	-45.414566
6015.625000	-43.000458
6031.250000	-43.362686
6046.875000	-44.563492
6062.500000	-44.529186
6078.125000	-47.077957
6093.750000	-44.666779
6109.375000	-44.671360
6125.000000	-44.970833
6140.625000	-45.762981
6156.250000	-46.496994
6171.875000	-47.055176
6187.500000	-46.389389
6203.125000	-48.308598
6218.750000	-49.431770
6234.375000	-51.764130
6250.000000	-48.713554
6265.625000	-45.904461
6281.250000	-46.932613
6296.875000	-48.647091
6312.500000	-52.899620
6328.125000	-53.234695
6343.750000	-50.044346
6359.375000	-51.518764
6375.000000	-57.285568
6390.625000	-50.423595
6406.250000	-50.019077
6421.875000	-51.402798
6437.500000	-50.752274
6453.125000	-52.786545
6468.750000	-55.856979
6484.375000	-52.254143
6500.000000	-51.046959
6515.625000	-53.285503
6531.250000	-55.593246
6546.875000	-56.527401
6562.500000	-59.026424
6578.125000	-59.167488
6593.750000	-55.689495
6609.375000	-53.334648
6625.000000	-54.072334
6640.625000	-58.577442
6656.250000	-62.241341
6671.875000	-58.274464
6687.500000	-54.918644
6703.125000	-54.623520
6718.750000	-58.297516
6734.375000	-59.522118
6750.000000	-62.687321
6765.625000	-57.176186
6781.250000	-54.471249
6796.875000	-55.184208
6812.500000	-56.763638
6828.125000	-56.727859
6843.750000	-56.429909
6859.375000	-55.932846
6875.000000	-56.293537
6890.625000	-57.764523
6906.250000	-59.125832
6921.875000	-60.288975
6937.500000	-54.430717
6953.125000	-54.140434
6968.750000	-57.217064
6984.375000	-59.125824
7000.000000	-57.885098
7015.625000	-57.744320
7031.250000	-58.832504
7046.875000	-58.632256
7062.500000	-58.652416
7078.125000	-59.715069
7093.750000	-62.718132
7109.375000	-60.173512
7125.000000	-59.397091
7140.625000	-59.396477
7156.250000	-60.458466
7171.875000	-61.500008
7187.500000	-62.977325
7203.125000	-64.187004
7218.750000	-64.096451
7234.375000	-68.352547
7250.000000	-64.892769
7265.625000	-63.765030
7281.250000	-63.089321
7296.875000	-63.855602
7312.500000	-65.447556
7328.125000	-67.109818
7343.750000	-68.887589
7359.375000	-70.403595
7375.000000	-73.184906
7390.625000	-71.143806
7406.250000	-70.301880
7421.875000	-70.072609
7437.500000	-71.638268
7453.125000	-73.274620
7468.750000	-74.217361
7484.375000	-75.636810
7500.000000	-76.684074
7515.625000	-76.944878
7531.250000	-78.063591
7546.875000	-80.468765
7562.500000	-83.449966
7578.125000	-84.371788
7593.750000	-83.305435
7609.375000	-83.613693
7625.000000	-84.213028
7640.625000	-85.511894
7656.250000	-86.087578
7671.875000	-87.795837
7687.500000	-89.485115
7703.125000	-91.835281
7718.750000	-93.988060
7734.375000	-92.905067
7750.000000	-92.768478
7765.625000	-93.259949
7781.250000	-94.171928
7796.875000	-95.236702
7812.500000	-95.616966
7828.125000	-95.660660
7843.750000	-95.909897
7859.375000	-96.145470
7875.000000	-96.044151
7890.625000	-95.979355
7906.250000	-96.291435
7921.875000	-96.120354
7937.500000	-96.309448
7953.125000	-96.600311
7968.750000	-96.227829
7984.375000	-95.990837
