Frequency (Hz)	Level (dB)
15.625000	-81.664986
31.250000	-83.783546
46.875000	-80.461418
62.500000	-81.096268
78.125000	-81.098114
93.750000	-80.413162
109.375000	-81.387947
125.000000	-81.848778
140.625000	-80.096466
156.250000	-79.800186
171.875000	-81.067772
187.500000	-78.539932
203.125000	-77.620979
218.750000	-75.875031
234.375000	-72.925980
250.000000	-71.980949
265.625000	-72.224670
281.250000	-71.385925
296.875000	-69.508087
312.500000	-70.720528
328.125000	-72.764656
343.750000	-71.068298
359.375000	-67.662788
375.000000	-62.813488
390.625000	-63.671165
406.250000	-66.096451
421.875000	-67.047043
437.500000	-64.373520
453.125000	-62.990520
468.750000	-65.783768
484.375000	-65.521660
500.000000	-65.150650
515.625000	-59.649837
531.250000	-56.366970
546.875000	-57.486485
562.500000	-59.241661
578.125000	-58.717316
593.750000	-61.773090
609.375000	-60.199409
625.000000	-62.688770
640.625000	-66.070526
656.250000	-63.510406
671.875000	-63.978279
687.500000	-62.652088
703.125000	-60.858345
718.750000	-62.771923
734.375000	-64.034416
750.000000	-62.103294
765.625000	-61.824253
781.250000	-57.923061
796.875000	-57.901386
812.500000	-57.889610
828.125000	-60.422924
843.750000	-64.637558
859.375000	-63.678123
875.000000	-67.197990
890.625000	-66.527557
906.250000	-63.446983
921.875000	-58.161922
937.500000	-58.345078
953.125000	-62.890648
968.750000	-64.102043
984.375000	-62.245033
1000.000000	-61.517372
1015.625000	-58.639473
1031.250000	-58.454185
1046.875000	-61.906162
1062.500000	-60.786549
1078.125000	-57.685986
1093.750000	-59.367798
1109.375000	-59.471100
1125.000000	-61.759449
1140.625000	-62.989632
1156.250000	-59.611900
1171.875000	-59.388878
1187.500000	-57.508698
1203.125000	-61.316433
1218.750000	-60.314125
1234.375000	-58.462612
1250.000000	-62.730381
1265.625000	-63.204460
1281.250000	-58.776047
1296.875000	-60.359711
1312.500000	-60.530609
1328.125000	-57.174736
1343.750000	-60.038105
1359.375000	-59.824417
1375.000000	-58.387218
1390.625000	-59.994759
1406.250000	-60.851021
1421.875000	-58.321880
1437.500000	-56.347946
1453.125000	-53.649994
1468.750000	-52.624443
1484.375000	-54.037830
1500.000000	-60.108292
1515.625000	-56.974545
1531.250000	-55.842525
1546.875000	-53.793247
1562.500000	-51.554176
1578.125000	-52.925983
1593.750000	-55.881523
1609.375000	-53.020481
1625.000000	-54.422207
1640.625000	-58.506893
1656.250000	-56.697735
1671.875000	-55.852196
1687.500000	-52.996281
1703.125000	-50.404026
1718.750000	-51.510723
1734.375000	-53.948677
1750.000000	-57.068310
1765.625000	-58.791206
1781.250000	-56.587196
1796.875000	-49.774296
1812.500000	-48.462982
1828.125000	-53.432129
1843.750000	-51.909046
1859.375000	-52.355980
1875.000000	-52.876366
1890.625000	-52.963043
1906.250000	-56.276970
1921.875000	-53.634369
1937.500000	-51.012764
1953.125000	-52.237301
1968.750000	-51.518536
1984.375000	-50.417492
2000.000000	-53.424725
2015.625000	-55.251987
2031.250000	-55.839233
2046.875000	-56.204891
2062.500000	-56.121117
2078.125000	-55.831295
2093.750000	-53.908863
2109.375000	-52.426846
2125.000000	-50.930626
2140.625000	-52.077610
2156.250000	-51.112358
2171.875000	-51.429333
2187.500000	-52.694622
2203.125000	-52.550583
2218.750000	-57.721161
2234.375000	-60.275322
2250.000000	-57.828930
2265.625000	-54.848381
2281.250000	-54.539070
2296.875000	-56.046562
2312.500000	-56.242050
2328.125000	-56.987709
2343.750000	-54.093632
2359.375000	-51.041279
2375.000000	-53.179352
2390.625000	-57.162193
2406.250000	-54.729458
2421.875000	-53.977528
2437.500000	-55.873024
2453.125000	-56.407181
2468.750000	-52.973782
2484.375000	-52.894558
2500.000000	-54.667660
2515.625000	-55.698036
2531.250000	-56.428307
2546.875000	-55.547401
2562.500000	-55.357735
2578.125000	-52.807739
2593.750000	-53.889721
2609.375000	-59.233906
2625.000000	-56.850750
2640.625000	-55.616348
2656.250000	-58.613255
2671.875000	-57.534565
2687.500000	-58.381908
2703.125000	-52.771118
2718.750000	-47.026550
2734.375000	-47.358112
2750.000000	-51.299873
2765.625000	-52.967751
2781.250000	-53.926071
2796.875000	-56.927460
2812.500000	-53.883297
2828.125000	-52.995972
2843.750000	-50.359726
2859.375000	-51.379944
2875.000000	-49.407734
2890.625000	-48.220814
2906.250000	-50.539349
2921.875000	-53.072388
2937.500000	-49.036846
2953.125000	-48.531380
2968.750000	-51.617748
2984.375000	-50.966545
3000.000000	-50.773083
3015.625000	-53.715412
3031.250000	-53.845463
3046.875000	-53.434376
3062.500000	-55.432941
3078.125000	-54.469097
3093.750000	-51.312309
3109.375000	-53.428841
3125.000000	-58.451366
3140.625000	-59.007553
3156.250000	-54.137928
3171.875000	-51.726425
3187.500000	-50.622276
3203.125000	-51.533016
3218.750000	-49.930054
3234.375000	-49.873096
3250.000000	-52.115963
3265.625000	-56.279495
3281.250000	-50.671780
3296.875000	-52.076416
3312.500000	-51.657143
3328.125000	-48.867550
3343.750000	-48.390869
3359.375000	-49.537846
3375.000000	-51.644215
3390.625000	-52.871399
3406.250000	-49.884068
3421.875000	-53.458706
3437.500000	-54.437454
3453.125000	-50.171444
3468.750000	-52.323753
3484.375000	-51.257206
3500.000000	-48.951477
3515.625000	-50.291824
3531.250000	-55.465614
3546.875000	-57.685749
3562.500000	-54.773254
3578.125000	-48.989902
3593.750000	-46.742813
3609.375000	-47.905262
3625.000000	-50.436268
3640.625000	-47.864433
3656.250000	-48.736431
3671.875000	-54.306793
3687.500000	-50.673428
3703.125000	-49.707066
3718.750000	-45.915947
3734.375000	-43.739033
3750.000000	-46.059837
3765.625000	-50.831787
3781.250000	-48.279385
3796.875000	-46.562279
3812.500000	-45.729614
3828.125000	-45.652451
3843.750000	-47.558899
3859.375000	-48.888191
3875.000000	-47.029472
3890.625000	-45.126747
3906.250000	-42.268257
3921.875000	-43.937283
3937.500000	-47.340298
3953.125000	-43.149670
3968.750000	-44.393131
3984.375000	-52.261955
4000.000000	-47.052422
4015.625000	-45.266968
4031.250000	-45.189693
4046.875000	-44.755852
4062.500000	-43.460670
4078.125000	-47.600750
4093.750000	-48.809299
4109.375000	-45.546146
4125.000000	-45.091583
4140.625000	-45.377796
4156.250000	-45.181999
4171.875000	-52.247234
4187.500000	-47.414639
4203.125000	-45.735256
4218.750000	-46.626865
4234.375000	-47.150146
4250.000000	-47.696194
4265.625000	-48.086353
4281.250000	-45.664974
4296.875000	-44.473953
4312.500000	-46.623661
4328.125000	-49.098099
4343.750000	-48.408485
4359.375000	-45.507290
4375.000000	-47.862000
4390.625000	-44.661724
4406.250000	-44.808094
4421.875000	-46.819843
4437.500000	-46.617535
4453.125000	-49.118317
4468.750000	-43.272934
4484.375000	-44.895412
4500.000000	-47.335899
4515.625000	-47.380424
4531.250000	-43.870796
4546.875000	-42.101849
4562.500000	-48.001781
4578.125000	-47.815208
4593.750000	-46.587368
4609.375000	-47.311604
4625.000000	-48.748768
4640.625000	-50.515957
4656.250000	-48.013443
4671.875000	-45.276394
4687.500000	-43.445656
4703.125000	-44.311546
4718.750000	-45.461613
4734.375000	-47.488045
4750.000000	-47.163116
4765.625000	-46.688496
4781.250000	-49.307705
4796.875000	-52.731464
4812.500000	-48.260735
4828.125000	-48.365097
4843.750000	-48.605835
4859.375000	-50.240528
4875.000000	-54.997402
4890.625000	-51.751083
4906.250000	-51.247478
4921.875000	-50.906624
4937.500000	-51.454029
4953.125000	-53.686031
4968.750000	-51.546623
4984.375000	-46.695992
5000.000000	-48.088924
5015.625000	-53.005470
5031.250000	-52.464684
5046.875000	-52.725498
5062.500000	-48.547398
5078.125000	-47.166595
5093.750000	-49.472534
5109.375000	-54.849354
5125.000000	-50.159889
5140.625000	-49.626995
5156.250000	-49.735672
5171.875000	-49.138100
5187.500000	-49.943680
5203.125000	-45.538498
5218.750000	-45.918354
5234.375000	-48.789143
5250.000000	-49.207687
5265.625000	-48.645512
5281.250000	-47.377178
5296.875000	-47.182465
5312.500000	-46.969505
5328.125000	-44.389427
5343.750000	-45.053688
5359.375000	-46.238079
5375.000000	-45.457802
5390.625000	-45.098972
5406.250000	-47.444855
5421.875000	-43.487972
5437.500000	-43.260563
5453.125000	-45.307323
5468.750000	-46.776783
5484.375000	-47.429886
5500.000000	-45.374222
5515.625000	-43.554146
5531.250000	-42.090618
5546.875000	-44.434795
5562.500000	-49.493813
5578.125000	-46.757915
5593.750000	-43.749485
5609.375000	-42.945927
5625.000000	-44.059944
5640.625000	-46.405502
5656.250000	-45.126953
5671.875000	-42.735016
5687.500000	-43.117619
5703.125000	-44.797596
5718.750000	-47.787743
5734.375000	-46.172543
5750.000000	-44.971378
5765.625000	-45.809803
5781.250000	-45.576443
5796.875000	-47.332119
5812.500000	-47.960564
5828.125000	-46.351192
5843.750000	-43.880409
5859.375000	-44.206303
5875.000000	-46.137306
5890.625000	-47.520622
5906.250000	-47.116467
5921.875000	-45.245785
5937.500000	-46.399399
5953.125000	-50.145203
5968.750000	-49.641468
5984.375000	-46.946960
6000.000000	-44.665764
6015.625000	-45.481430
6031.250000	-48.521431
6046.875000	-51.033340
6062.500000	-48.497757
6078.125000	-49.040070
6093.750000	-50.425179
6109.375000	-48.978012
6125.000000	-48.077335
6140.625000	-48.634747
6156.250000	-50.422054
6171.875000	-51.933704
6187.500000	-54.821548
6203.125000	-53.301739
6218.750000	-49.239349
6234.375000	-47.295071
6250.000000	-48.770779
6265.625000	-52.049538
6281.250000	-53.670269
6296.875000	-54.479641
6312.500000	-54.071060
6328.125000	-51.305027
6343.750000	-55.401329
6359.375000	-59.410965
6375.000000	-54.787899
6390.625000	-52.163948
6406.250000	-52.931637
6421.875000	-53.717327
6437.500000	-53.662758
6453.125000	-51.730549
6468.750000	-51.845978
6484.375000	-54.894470
6500.000000	-58.856979
6515.625000	-58.466282
6531.250000	-59.156647
6546.875000	-56.265438
6562.500000	-56.461876
6578.125000	-58.797947
6593.750000	-59.762314
6609.375000	-57.937885
6625.000000	-58.899952
6640.625000	-58.421455
6656.250000	-58.929985
6671.875000	-62.470379
6687.500000	-65.487335
6703.125000	-67.132164
6718.750000	-59.990799
6734.375000	-58.641205
6750.000000	-64.135025
6765.625000	-64.540291
6781.250000	-64.896835
6796.875000	-63.108391
6812.500000	-63.658344
6828.125000	-60.704697
6843.750000	-60.536407
6859.375000	-61.463348
6875.000000	-63.722130
6890.625000	-62.890358
6906.250000	-62.618584
6921.875000	-62.672882
6937.500000	-67.800850
6953.125000	-67.029091
6968.750000	-62.843143
6984.375000	-62.655441
7000.000000	-62.259304
7015.625000	-63.336372
7031.250000	-66.447929
7046.875000	-67.259796
7062.500000	-71.669746
7078.125000	-66.601494
7093.750000	-64.766808
7109.375000	-64.447327
7125.000000	-66.507187
7140.625000	-68.936211
7156.250000	-68.194283
7171.875000	-68.172440
7187.500000	-70.675018
7203.125000	-72.470566
7218.750000	-75.205437
7234.375000	-72.330841
7250.000000	-72.338837
7265.625000	-72.584129
7281.250000	-71.336136
7296.875000	-72.104752
7312.500000	-73.060020
7328.125000	-74.038673
7343.750000	-76.064430
7359.375000	-77.457840
7375.000000	-80.120804
7390.625000	-80.295021
7406.250000	-80.583015
7421.875000	-78.721786
7437.500000	-79.910248
7453.125000	-79.541832
7468.750000	-81.371811
7484.375000	-84.302353
7500.000000	-86.317162
7515.625000	-87.997528
7531.250000	-88.957573
7546.875000	-85.755486
7562.500000	-85.346741
7578.125000	-88.337135
7593.750000	-92.313019
7609.375000	-92.101501
7625.000000	-92.556404
7640.625000	-93.332001
7656.250000	-94.580528
7671.875000	-95.630714
7687.500000	-96.120598
7703.125000	-95.651833
7718.750000	-97.010445
7734.375000	-98.567696
7750.000000	-98.838364
7765.625000	-98.547371
7781.250000	-98.375374
7796.875000	-98.692101
7812.500000	-98.802254
7828.125000	-98.845970
7843.750000	-99.108078
7859.375000	-99.128204
7875.000000	-98.989494
7890.625000	-98.861252
7906.250000	-98.978432
7921.875000	-99.262306
7937.500000	-98.999596
7953.125000	-99.091003
7968.750000	-99.184280
7984.375000	-99.241402
